"Subject","n_trials","n_explores","n_corrects","n_selects","n_outoftimes","StartDate","StartTime","tm_accuracy","tm_select_made","tm_nodesturns_count","tm_nodes_count","tm_turns_count","tm_average_RT","tm_trial_duration","tm_path_dist_trav","tm_euc_dist_trav","tm_path_efficiencies","tm_path_efficiencies_acc_only","ts_accuracy","ts_select_made","ts_nodesturns_count","ts_nodes_count","ts_turns_count","ts_average_RT","ts_trial_duration","ts_path_dist_trav","ts_euc_dist_trav","ts_path_efficiencies","ts_path_efficiencies_acc_only","em_nodesturns_count","em_nodes_count","em_turns_count","em_average_RT","em_trial_duration","em_path_dist_trav","em_euc_dist_trav","em_path_efficiencies","em_path_efficiencies_acc_only","es_nodesturns_count","es_nodes_count","es_turns_count","es_average_RT","es_trial_duration","es_path_dist_trav","es_euc_dist_trav","es_path_efficiencies","es_path_efficiencies_acc_only","enodes_A","enodes_B","enodes_C","enodes_D","enodes_E","enodes_F","enodes_G","enodes_H","enodes_I","enodes_J","enodes_K","enodes_L","enodes_M","enodes_N","enodes_O","enodes_P","enodes_Q","enodes_R","enodes_S","enodes_T","enodes_U","enodes_V","enodes_W","enodes_X","enodes_Y","enodes_Z","lm_bwstair","lm_person","lm_philsbar","lm_starrynight","obj_chair","obj_chicken","obj_clock","obj_guitar","obj_lamp","obj_snowman","obj_spaceship","obj_trophy","obj_umbrella"
"2","48","2","44","45","3","2017-02-07","15:10:46","0.916666666666667","0.9375","13.1041666666667","7.33333333333333","5.77083333333333","295.458758887276","30544.2291666667","21.3229166666667","9.41124357101863","1.08626939392782","1.0439018784607","0.279310193865464","0.244623027395041","3.56841691661444","1.68008780587831","2.29003004099345","109.087037515846","8373.65737282277","6.04063331833052","3.28744463088749","0.25454588474427","0.105522227999837","178","92.5","85.5","319.420903954802","484121","293.25","11.8670137793338","NaN","NaN","0","3.53553390593274","3.53553390593274","27.2096287382013","1828.57813614841","10.6066017177982","2.86757178152645",NA,NA,"8","10","22","14","27","13","24","24","5","17","4","10","19","2","4","8","11","28","8","27","21","10","5","25","2","8","27","24","33","39","4","4","5","4","4","5","5","4","5"
"3","48","2","48","46","2","2017-02-07","13:11:09","1","0.958333333333333","12.9166666666667","7.625","5.29166666666667","322.517483618964","30555.1666666667","21.859375","9.13262809130729","1.06477160854872","1.06477160854872","0","0.201940936523459","3.17458882131169","1.97457240186648","1.58393978680597","102.115492618522","7503.30254758312","6.80091245638125","3.65646468891862","0.198272701324399","0.198272701324399","166","96","70","386.876946811637","480743.5","317.75","6.75594901040715","NaN","NaN","1.4142135623731","1.4142135623731","0","3.96513815809356","825.193613644701","5.30330085889911","5.3117140300996",NA,NA,"10","8","13","16","18","15","25","20","3","18","4","10","21","8","5","8","18","20","10","23","14","8","4","19","6","8","21","21","29","28","4","4","4","5","4","3","5","5","4"
"4","8","2","3","5","3","2017-02-21","16:17:14","0.375","0.625","15.75","8.5","7.25","556.248418014841","42931.75","27.59375","10.0361621174613","1.44985222113455","1.442791005291","0.517549169506766","0.517549169506766","2.86605752110555","1.0690449676497","2.71240536372107","224.352767054443","3328.96774004881","3.90726772456516","3.86404857290309","0.383865810920235","0.112748063155692","158.5","83","75.5","685.105253593926","486815.5","275.125","10.486417921056","NaN","NaN","9.19238815542512","4.24264068711928","4.94974746830583","276.549993223098","9399.57044231278","23.864853865046","2.32003844147284",NA,NA,"9","9","12","9","15","10","29","25","2","19","3","12","14","2","3","8","22","33","9","16","20","6","4","16","2","8","21","22","29","36","4","3","4","5","3","2","6","3","3"
"5","48","2","38","39","9","2017-03-07","15:14:27","0.791666666666667","0.8125","14.4583333333333","8.125","6.33333333333333","223.858430370011","33410.8125","24.1041666666667","9.13660954167655","1.42094997835275","1.13599215470251","0.410414079086058","0.394442779605583","4.10478876193914","2.32127074516103","2.40861338527301","95.1452577202023","9543.94880061584","8.32019354146139","3.02849436639117","0.951083905053615","0.328945429486943","171","81.5","89.5","515.216355676014","481032.5","258","14.1778092190296","NaN","NaN","15.556349186104","0.707106781186548","16.2634559672906","171.027334113923","1235.3155467329","10.2530483272049","2.71190919789023",NA,NA,"10","12","11","19","22","12","26","27","2","15","2","6","17","2","4","6","14","27","15","27","24","8","5","21","2","6","31","23","30","39","3","4","5","5","2","2","3","4","4"
"6","48","2","11","31","17","2017-03-24","14:23:26","0.229166666666667","0.645833333333333","13.9583333333333","7.08333333333333","6.875","579.149066934223","36616.9375","22.0833333333333","8.52729356900932","1.50378884271554","1.11462914509455","0.424744395393794","0.483321105250062","4.1970523259724","2.00884568668372","2.87783163051924","287.929390256431","11344.8037358308","7.98541445208896","3.75656925483864","1.33337376339052","0.267877006740044","164.5","86","78.5","589.437857142857","481584.5","277.75","3.75","NaN","NaN","16.2634559672906","5.65685424949238","10.6066017177982","249.343023639634","1018.94087168982","18.7383297014435","1.06066017177982",NA,NA,"8","5","15","15","18","12","22","23","3","12","2","6","10","2","1","8","24","31","9","24","18","12","4","33","2","10","27","21","32","34","4","4","4","4","2","3","3","1","6"
"7","48","2","44","45","3","2017-03-23","13:35:48","0.916666666666667","0.9375","12.9166666666667","7.5","5.41666666666667","334.162907663551","31121.8958333333","21.4895833333333","8.93787183275333","1.07703142184986","1.04838163988092","0.279310193865464","0.244623027395041","3.01650307146236","1.96782631996117","1.48515108957481","176.435919014472","7876.92611025172","6.65805350071924","3.71524593516345","0.246071623510498","0.182210435170159","172","85.5","86.5","429.952386655261","481670","269.875","5.71041601603159","NaN","NaN","5.65685424949238","3.53553390593274","2.12132034355964","168.418027773073","1432.59833868395","23.864853865046","1.3582333553922",NA,NA,"8","21","18","20","21","8","19","26","3","19","4","6","17","4","3","8","18","24","7","24","12","10","3","25","6","10","30","25","35","35","4","2","3","4","4","3","3","3","5"
"8","48","2","7","29","19","2017-03-15","10:58:49","0.145833333333333","0.604166666666667","14.2708333333333","7.83333333333333","6.4375","352.0790878064","35152.1875","23.6197916666667","9.14026947302145","1.47981853411147","1.16300675675676","0.356673957637416","0.49420399497827","4.95399938727065","2.47827439393446","2.76687280271121","166.845130749077","12287.9485427645","9.85209632937749","3.23252338724327","1.28016598032755","0.319974302676997","177","95","82","405.293593729758","481190.5","293","10.0778714048897","NaN","NaN","14.142135623731","2.82842712474619","16.9705627484771","77.6647192544005","574.877813104663","16.6170093578839","2.49960314710387",NA,NA,"8","15","14","20","17","10","21","23","3","12","1","6","17","2","2","10","13","30","11","23","30","16","5","27","6","12","23","21","41","37","5","3","5","4","1","3","3","2","8"
"9","48","2","20","33","15","2017-03-16","09:34:00","0.416666666666667","0.6875","15.25","8.10416666666667","7.14583333333333","311.840766867542","36206.2708333333","24.9583333333333","9.59284802917662","1.30649534542182","1.1392995755003","0.498223795452014","0.468417435218867","4.5779304066915","2.2993022376673","2.72099468149748","138.506442747606","11056.7198759148","8.72791031345512","3.99809476189107","0.401805167169299","0.280192407361304","172","96","76","463.458538587849","481724.5","304.125","6.73004120848019","NaN","NaN","4.24264068711928","4.24264068711928","8.48528137423857","57.7046738338256","5213.49829768841","0.530330085889911","1.79599294662225",NA,NA,"12","14","14","13","18","17","26","24","2","11","1","6","14","4","3","12","17","27","10","25","22","10","4","24","2","12","27","21","34","33","6","5","4","6","1","2","3","3","5"
"10","48","2","29","37","11","2017-03-23","15:36:53","0.604166666666667","0.770833333333333","14.1041666666667","8.04166666666667","6.0625","352.326501892035","35220.2916666667","24.6666666666667","9.66855383046331","1.27259992690015","1.21700615860933","0.49420399497827","0.424744395393794","4.26883602319272","2.38754154098501","2.25413331932177","160.045260415469","10084.7498285585","8.19612215866237","3.61267039712035","0.333280647291684","0.277490858770548","169.5","88","81.5","394.378267455789","481650","289.25","9.72660332118435","NaN","NaN","3.53553390593274","2.82842712474619","6.36396103067893","62.9392542455951","782.060099992322","14.8492424049175","7.46065517663502",NA,NA,"14","17","25","16","17","15","32","25","6","17","4","10","19","6","4","4","14","26","8","16","13","8","3","11","6","3","25","21","20","37","2","4","3","7","4","6","5","4","4"
"11","48","2","46","47","1","2017-03-29","14:46:30","0.958333333333333","0.979166666666667","11.9166666666667","7.04166666666667","4.875","329.201297121656","27952.7708333333","19.78125","9.10681203963362","1.13463150259145","1.00422494105359","0.201940936523459","0.144337567297406","3.14089927042405","1.76199033172092","1.70886300385884","347.72186566804","7833.47461353092","6.10276031895718","3.33056213640585","0.894192078902416","0.0176144316589525","153","71","82","744.229191064844","480209","241.25","3.91311896062463","NaN","NaN","9.89949493661167","18.3847763108502","8.48528137423857","375.339763038925","28.2842712474619","67.5286976033153","5.53398590529466",NA,NA,"2","8","11","8","13","12","5","8","2","22","4","2","18","6","3","8","22","47","15","30","24","8","3","13","4","8","34","32","27","47","4","3","3","1","4","2","1","3","4"
"12","48","2","39","46","2","2017-04-05","14:42:40","0.8125","0.958333333333333","12.1458333333333","7.0625","5.08333333333333","430.102145163864","29677.2291666667","19.859375","9.28677013535456","1.03430623441837","1.02084449405368","0.394442779605583","0.201940936523459","3.49461338277004","1.96139605079777","1.9875499012425","183.895018789557","8413.35704556466","6.69608218455691","3.89174172501414","0.0997036034481957","0.070141083730512","153","78","75","748.226015406164","481540.5","252.125","7.35621471129282","NaN","NaN","22.6274169979695","8.48528137423857","14.142135623731","367.063933290255","2064.04469428353","26.3397275991989","3.68574419116659",NA,NA,"6","10","15","18","22","10","18","15","3","13","3","8","20","2","5","6","19","25","11","21","17","8","4","17","4","6","25","28","26","34","3","3","4","3","3","3","4","5","4"
"13","48","2","44","45","3","2017-04-06","13:30:07","0.916666666666667","0.9375","11.9375","7.125","4.8125","412.576310728011","29266.3541666667","20.359375","9.01210222710895","1.05255645794603","1.02391090509405","0.279310193865464","0.244623027395041","3.73258366966687","2.27497954164287","1.68417225075488","191.387380013352","9893.28956003541","7.73443981006588","3.62478655427538","0.175833906945236","0.0786669519745145","159","88.5","70.5","551.639887032809","480462","298.75","10.4811156795855","NaN","NaN","1.4142135623731","2.12132034355964","0.707106781186548","53.1774721784656","622.253967444162","6.36396103067893","2.32753694327134",NA,NA,"8","8","17","9","13","8","20","16","4","20","4","8","15","4","2","4","22","38","18","23","19","8","3","17","6","4","28","31","28","32","2","2","3","4","4","4","4","2","4"
"14","48","2","16","33","15","2017-04-28","14:47:18","0.333333333333333","0.6875","14.5416666666667","7.66666666666667","6.875","354.436719576022","36189.375","23.9322916666667","9.09025368626589","1.41699981810575","1.19031083050024","0.476393067340331","0.468417435218867","3.68411387384551","1.53447382808506","2.56510959493791","100.042451563863","9410.17597372031","6.24004304389932","3.20261635106067","0.868797946724443","0.377048846597159","175.5","89.5","86","363.770395428271","480625.5","298.5","8.36606229914324","NaN","NaN","2.12132034355964","3.53553390593274","1.4142135623731","34.4747533088992","433.456456867354","12.0208152801713","0.517690268121854",NA,NA,"12","16","20","19","22","16","32","33","3","21","5","10","16","4","3","4","24","24","13","14","13","6","3","10","4","4","29","28","26","36","2","5","3","6","5","3","5","3","3"
"15","48","2","47","47","1","2017-05-15","12:48:22","0.979166666666667","0.979166666666667","12.4583333333333","7.3125","5.14583333333333","323.262722318191","29346.8541666667","20.5208333333333","9.30694469320572","1.02692369120388","1.02749653569758","0.144337567297406","0.144337567297406","2.73634585761418","1.5999501322016","1.47301374859371","226.665544909956","6627.52265577027","5.33151841903245","3.18290802042647","0.100130583396895","0.101133572581192","165","82","83","532.330357142857","481485.5","264.875","6.46438993767145","NaN","NaN","5.65685424949238","2.82842712474619","2.82842712474619","164.8190145505","217.08178182427","17.5008928343671","3.83872706342403",NA,NA,"6","13","21","11","17","11","20","18","3","15","3","4","19","4","4","8","14","41","8","22","24","10","4","16","6","8","27","24","34","36","4","3","4","3","3","3","2","4","5"
"17","48","2","47","46","2","2017-05-24","15:14:24","0.979166666666667","0.958333333333333","12.5416666666667","7.39583333333333","5.14583333333333","254.829139188967","28919.7291666667","20.671875","9.37604891885439","1.04450530298856","1.02697518065573","0.144337567297406","0.201940936523459","2.83562693982195","1.65978187920125","1.4290241177384","91.3112197202463","6676.5730212488","5.60066396377308","3.2168718128019","0.160965235200971","0.106778969182207","161","81.5","79.5","629.273824899221","482597.5","268.125","10.657177065224","NaN","NaN","9.89949493661167","2.12132034355964","7.77817459305202","84.5117829856811","621.546860662975","5.12652416360247","2.72243530702287",NA,NA,"6","14","14","14","23","8","22","16","2","19","4","6","20","4","3","4","15","32","15","24","19","8","4","20","2","4","33","30","26","41","2","2","4","3","4","2","3","3","4"
"18","48","2","35","36","12","2017-05-25","15:47:37","0.729166666666667","0.75","14.9166666666667","8.125","6.79166666666667","278.408931705925","36187.1041666667","25.9010416666667","9.68015804471815","1.42397302980567","1.2026469825481","0.449092860289629","0.437594974493684","3.88578058826561","1.95290291290531","2.40529852469663","127.031143078617","9724.6088916368","8.19943232066743","3.72441750694947","0.59626204487355","0.3625060242662","176","97","79","338.482026143791","481071","310.375","11.3860489280267","NaN","NaN","7.07106781186548","5.65685424949238","1.4142135623731","69.6795962697485","537.401153701776","22.8041936932662","1.23623606854059",NA,NA,"8","17","22","13","23","18","24","27","5","12","2","10","21","6","5","6","13","25","12","16","20","10","5","22","2","8","30","21","23","39","3","5","5","4","2","5","5","5","5"
"19","48","2","7","39","9","2017-05-25","13:37:04","0.145833333333333","0.8125","13.5208333333333","7.3125","6.20833333333333","331.321943925903","32972.7708333333","22.28125","8.25279246140605","1.63231044086891","1.05544830544831","0.356673957637416","0.394442779605583","3.67851486760699","1.77639666358136","2.1334053622592","93.2066288736394","9474.40376440893","7.28843900194729","3.39344015577881","2.40597007915631","0.135160455704939","175","93","82","403.024878580633","480731","306.875","8.4268592184551","NaN","NaN","4.24264068711928","4.24264068711928","0","84.0650369339272","735.391052434009","10.4298250225016","5.19986417367574",NA,NA,"4","10","11","20","30","17","11","14","2","19","4","4","22","4","4","4","15","43","20","23","18","14","3","24","6","4","34","32","37","42","2","5","3","2","4","2","2","4","7"
"20","48","2","28","32","16","2017-06-09","13:46:06","0.583333333333333","0.666666666666667","14.0208333333333","7.8125","6.20833333333333","545.587882195419","37430.5","24.1979166666667","9.07077304133026","1.40863794108952","1.0955588550818","0.498223795452014","0.476393067340331","3.47323862192374","2.00696924040078","2.1334053622592","347.186265995845","10074.6811300577","7.02426613364785","3.62023470723916","0.79242552167013","0.170854677698696","148","81","67","852.682361111111","482676.5","264.5","12.0664381520406","NaN","NaN","4.24264068711928","0","4.24264068711928","12.165575751764","1225.41605179629","4.24264068711928","4.08376549840473",NA,NA,"6","11","14","12","17","11","19","20","3","6","1","8","15","4","3","6","15","36","10","22","14","8","4","19","6","6","26","26","29","25","3","3","4","3","1","3","4","3","4"
"21","48","2","6","28","20","2017-06-02","12:31:17","0.125","0.583333333333333","14.5208333333333","7.10416666666667","7.41666666666667","454.968002095406","36901.875","21.8802083333333","8.538173453219","1.24321887201954","1.04444444444444","0.334218682391596","0.498223795452014","4.49581168367131","2.12622513702885","2.94512459248301","212.141852159894","11513.2686369878","8.19314541983525","3.51847106534903","0.312778824564193","0.108866210790365","161.5","79.5","82","576.757582238121","481079.5","257.25","12.1987179645888","NaN","NaN","9.19238815542512","0.707106781186548","8.48528137423857","124.362013342769","415.071680556503","2.12132034355964","0.0869484953138645",NA,NA,"6","9","19","17","18","8","14","12","4","15","4","4","18","4","4","8","20","38","13","30","18","6","4","18","4","8","34","29","25","39","4","2","4","3","4","4","2","4","3"
"22","48","2","29","34","14","2017-06-05","14:17:42","0.604166666666667","0.708333333333333","14.2916666666667","7.54166666666667","6.75","463.36543691096","36281.4375","23.09375","8.98009547773045","1.36705709773435","1.09563650711184","0.49420399497827","0.459339643185104","3.99445537700263","1.94562611847904","2.50531350227488","157.966773051487","10444.1272735758","7.99012438989265","3.26873809381685","0.827566429924139","0.172814182764597","159","83.5","75.5","669.159991941982","483065.5","278.25","8.9436180469692","NaN","NaN","16.9705627484771","7.77817459305202","9.19238815542512","304.972647659008","546.593541857201","22.6274169979695","4.51645795506332",NA,NA,"6","18","16","11","23","15","17","18","3","8","2","6","21","6","4","4","14","39","18","15","20","6","5","15","4","4","35","29","16","46","2","4","5","3","2","3","3","4","3"
"23","18","2","2","15","2","2017-06-06","15:08:47","0.111111111111111","0.882352941176471","8.88888888888889","4.88888888888889","4","1077.10693277311","24369.7647058824","13.9444444444444","6.90899389028458","1.12067131937521","1","0.323380833381777","0.332105582077536","5.46527959447196","3.12276063554799","2.54373509534584","1291.08575376443","15687.02837749","11.3106390427577","3.85612165441625","0.32823742145894","0","161","92.5","68.5","612.647605083088","482272","306","8.1661147660808","NaN","NaN","7.07106781186548","2.12132034355964","4.94974746830583","122.503934290504","405.879292401078","21.5667568261897","6.24532939518756",NA,NA,"12","13","28","25","23","17","20","19","5","15","2","4","15","4","3","4","14","22","10","18","20","4","5","12","2","6","23","19","25","40","2","5","5","6","2","5","2","3","2"
"24","48","2","41","43","5","2017-06-06","13:03:11","0.854166666666667","0.895833333333333","14.1041666666667","7.66666666666667","6.4375","410.125402589559","34455.3125","23.3333333333333","9.32301317993068","1.26879610537581","1.19901361440599","0.356673957637416","0.308709278188584","4.1010615301113","1.98219020635871","2.712510417668","177.101133043603","9554.73815880083","7.11855033453078","3.8501752152676","0.464842565246047","0.415540610968648","168","93","75","416.136262553802","480785.5","308.375","11.0411147660808","NaN","NaN","4.24264068711928","4.24264068711928","8.48528137423857","70.5955830478856","528.208765546351","15.3795724908074","2.17946540336491",NA,NA,"8","13","20","21","12","11","24","23","4","26","5","10","12","4","2","6","17","30","10","21","15","8","4","18","6","6","25","22","34","36","3","3","4","4","5","4","5","2","4"
"25","48","2","33","42","6","2017-06-07","13:52:34","0.6875","0.875","12.8541666666667","7.14583333333333","5.70833333333333","447.841476544969","32083.0416666667","20.7708333333333","8.62297377439643","1.12808851451566","1.05556479468244","0.468417435218867","0.334218682391596","4.15645912794406","2.30623192106927","2.46644143115812","228.780566721901","10443.435022159","8.0429090834612","3.56882189790501","0.308773752448545","0.192830162882545","160","73.5","86.5","645.244646744509","480763","242.375","8.3800999176196","NaN","NaN","5.65685424949238","3.53553390593274","2.12132034355964","93.3023269604258","292.742207411231","0.530330085889911","5.48728992686037",NA,NA,"6","14","16","13","12","10","25","23","2","16","4","12","12","2","2","2","20","28","6","24","35","8","5","19","2","2","28","20","27","46","1","3","5","3","4","2","6","2","4"
"26","48","2","13","35","13","2017-06-07","15:48:57","0.270833333333333","0.729166666666667","14.375","7.47916666666667","6.89583333333333","461.37140498659","35843.5","23.5729166666667","9.79933876630927","1.33294942100305","1.20270617088568","0.449092860289629","0.449092860289629","4.31042773214475","2.04200134758675","2.67565528528504","453.729523232024","10679.8657593763","7.90265884648778","3.34760018097813","0.577970606872794","0.253224953078038","163.5","88.5","75","551.640616693248","480663","289","4.5","NaN","NaN","12.0208152801713","3.53553390593274","8.48528137423857","170.471001969884","755.190042307233","0.707106781186548","0",NA,NA,"8","7","8","15","26","13","19","19","1","11","2","6","22","2","5","6","23","24","14","27","17","12","4","26","4","6","26","30","31","31","3","4","4","4","2","1","3","5","6"
"27","48","2","15","30","18","2017-06-08","10:47:43","0.3125","0.625","14.5","7.39583333333333","7.10416666666667","437.716585720405","36717.4791666667","22.9791666666667","9.32776812016778","1.31093516150878","1.08557075737836","0.468417435218867","0.489246054790082","4.4098535702037","2.02893519220906","2.96963056183069","274.375645366909","10830.1938510177","8.27130282087471","3.24742651310336","0.513050308432926","0.141928423697931","167","86","81","495.694503938723","480876.5","274.875","12.6504151164338","NaN","NaN","4.24264068711928","11.3137084989848","7.07106781186548","95.1236122543364","962.372329194891","19.2686597873334","1.2733792694265",NA,NA,"8","7","13","15","14","11","24","26","3","11","1","10","11","4","2","12","16","35","6","26","25","10","6","23","4","11","27","20","37","29","6","3","6","4","1","3","5","2","5"
"28","48","2","9","39","9","2017-06-09","11:00:59","0.1875","0.8125","12.125","6.875","5.25","512.14896923109","31051.7291666667","19.890625","8.27912771997961","1.43618962443938","1.07544757033248","0.394442779605583","0.394442779605583","4.60630927168194","2.34860755487342","2.51379174478918","190.711370924568","11468.8664722862","9.14480236196287","3.78990153529738","1.21813146691892","0.149862084281008","143","74","69","865.658883147854","481836","239.25","7.0269485164821","NaN","NaN","8.48528137423857","9.89949493661167","1.4142135623731","178.20538262659","2018.08275350641","33.9411254969543","3.22009147283428",NA,NA,"2","9","6","20","18","11","20","16","0","15","3","6","17","4","3","6","10","25","6","18","19","12","4","26","2","8","15","18","39","27","3","3","4","1","3","0","3","3","6"
"29","48","2","18","31","17","2017-06-12","11:36:58","0.375","0.645833333333333","15.1666666666667","7.6875","7.47916666666667","325.094237600599","36910","24.859375","9.29276902651112","1.31225548920048","1.24475239157336","0.489246054790082","0.483321105250062","3.88851737502696","1.55954507824039","2.85082730309234","114.692810443584","9022.70805458638","6.87558629028146","3.59186670888296","0.469035224946798","0.271359003100705","174.5","88.5","86","443.397329741952","482443","286.75","11.0497670811582","NaN","NaN","7.77817459305202","6.36396103067893","1.4142135623731","136.776747259941","2365.97928985019","16.2634559672906","1.71181041716196",NA,NA,"10","12","17","17","23","17","24","25","4","14","2","8","24","4","5","2","15","31","9","22","21","12","3","24","2","2","29","27","27","41","1","5","3","5","2","4","4","5","6"
"30","23","2","6","12","10","2017-06-13","14:14:39","0.260869565217391","0.545454545454545","14.6086956521739","7.43478260869565","7.17391304347826","2341.69663573123","40583.0454545455","23.0978260869565","8.26467618298983","1.48328659604808","1.54066412363067","0.44897775854488","0.509647191437625","4.2931142588482","2.01868739883848","2.80668315912773","8394.59946904786","8787.74268364897","7.3576410229723","3.12286606834007","0.465411380425989","0.653036025129585","154","81","73","759.111111111113","481096","257.75","10.8150729063673","NaN","NaN","12.7279220613579","9.89949493661167","2.82842712474619","344.28243501772","46.6690475583121","27.9307178568686","0.261526403865603",NA,NA,"6","14","19","17","16","15","14","19","2","14","3","4","17","4","3","8","17","22","13","23","17","8","4","17","4","8","24","21","24","33","4","4","4","3","3","2","2","3","4"
"31","48","2","47","48","0","2017-06-26","16:37:11","0.979166666666667","1","12.4791666666667","7.33333333333333","5.14583333333333","329.572821071902","29449.4375","20.7447916666667","9.29354809804014","1.03775721736424","1.03856056241454","0.144337567297406","0","2.79809649076496","1.56195912624394","1.66298351897942","97.5769100524401","6747.81364404309","5.69795819704289","3.18590900209261","0.121413118344645","0.122596713362327","157","86.5","70.5","545.453729196631","480398.5","285.875","5.875","NaN","NaN","1.4142135623731","3.53553390593274","2.12132034355964","69.6949258379917","376.88791437243","7.24784450716211","3.00520382004283",NA,NA,"8","10","13","15","22","11","20","17","3","21","5","8","22","4","5","6","14","21","12","18","16","10","4","17","6","6","23","22","26","34","3","3","4","4","5","3","4","5","5"
"32","48","2","10","30","18","2017-06-28","15:37:37","0.208333333333333","0.625","14.9583333333333","8","6.95833333333333","487.709038986165","38396.4166666667","25.2447916666667","9.27025570541418","1.43544009310191","1.21363684686961","0.410414079086058","0.489246054790082","3.57865024676239","1.98933325727758","2.68928791756221","231.857580581444","8687.52264183998","7.09219108765118","3.6376598144298","0.753504344701127","0.197123190115062","162.5","89","73.5","450.80995318855","481819","289.75","8.1661147660808","NaN","NaN","6.36396103067893","0","6.36396103067893","77.5640953051391","84.8528137423857","7.77817459305202","6.24532939518756",NA,NA,"6","10","14","10","22","14","14","16","3","22","4","4","22","4","3","10","10","31","14","19","22","10","5","20","6","10","21","23","36","34","5","4","5","3","4","3","2","3","5"
"33","48","2","48","47","1","2017-06-30","12:45:48","1","0.979166666666667","12.5625","7.5625","5","350.970073965386","30097.9583333333","21.4322916666667","9.13262809130729","1.0325684984412","1.0325684984412","0","0.144337567297406","3.28054387032187","2.03068220378423","1.45864991497895","100.458172093298","7859.94749849374","6.82274426586369","3.65646468891862","0.0948171320812606","0.0948171320812606","156","89.5","66.5","640.041458333334","482092.5","292.875","7.16966716353861","NaN","NaN","7.07106781186548","0.707106781186548","7.77817459305202","22.1822343536477","829.43625433182","0.176776695296637","3.77547950969841",NA,NA,"8","10","15","16","14","17","20","19","3","16","3","8","16","6","3","8","14","24","10","22","15","8","4","17","8","8","22","20","29","33","4","5","4","4","3","3","4","3","4"
"34","48","2","47","47","1","2017-07-27","13:45:29","0.979166666666667","0.979166666666667","12.5416666666667","7.4375","5.10416666666667","335.580147560433","29953.4166666667","21.046875","9.05141254259423","1.02393671286695","1.02444600463008","0.144337567297406","0.144337567297406","3.29382616119033","2.0096178317748","1.69152560289468","127.278012447401","7596.16287186409","6.33708610004328","3.7041959739206","0.0707560027248632","0.0714319687476598","165.5","86","79.5","587.421607817011","482439","284.875","9.75104159433875","NaN","NaN","9.19238815542512","4.24264068711928","4.94974746830583","183.054603803201","1979.89898732233","1.59099025766973","7.4260942392991",NA,NA,"8","13","18","18","21","11","19","23","3","11","2","8","15","4","2","8","22","23","11","22","23","8","4","26","0","8","27","27","31","34","4","3","4","4","2","3","4","2","4"
"35","48","2","18","26","22","2017-08-11","09:22:21","0.375","0.541666666666667","15.3333333333333","7.83333333333333","7.5","448.604159542388","39011.4375","24.7604166666667","8.86732003458723","1.76491431558296","1.19380026744313","0.489246054790082","0.503533612870859","4.13255540608921","1.9497226571275","2.64172735236915","165.850173173819","10065.1646674679","7.5164639033211","3.49365838676971","1.83399432923645","0.262185976925352","137","70","67","1149.30928509154","480699.5","234.5","10.42270930141","NaN","NaN","16.9705627484771","9.89949493661167","7.07106781186548","466.697873387282","895.904291763356","22.9809703885628","8.02242242945396",NA,NA,"6","9","8","11","19","13","14","18","1","14","2","4","21","4","4","4","14","28","12","21","18","4","4","11","4","6","25","24","25","31","2","4","4","3","2","1","2","4","2"
"36","48","2","15","35","13","2017-08-10","10:33:07","0.3125","0.729166666666667","14.2291666666667","7.54166666666667","6.6875","488.546623432682","36603.2916666667","23.8645833333333","9.6493600889626","1.5534102217507","1.24554841155681","0.468417435218867","0.449092860289629","4.16285286451866","1.76199033172092","2.83711158181337","222.693148949478","9169.59367520937","7.48650529451644","3.46513882909291","1.46235679694639","0.429625330780792","158","81.5","76.5","702.11858076564","480812.5","266","6.00594901040715","NaN","NaN","5.65685424949238","0.707106781186548","6.36396103067893","9.32773539178653","942.573339321668","5.65685424949238","6.37237420187942",NA,NA,"6","9","18","16","19","11","19","28","4","11","2","8","19","4","4","8","19","34","8","17","13","8","2","19","2","8","30","25","26","29","4","3","2","3","2","4","4","4","4"
"37","48","2","12","23","25","2017-08-16","15:15:59","0.25","0.479166666666667","15.4583333333333","6.89583333333333","8.5625","485.266989444648","39562.875","21.5260416666667","7.87949372444612","1.54543153424781","1.09184558583035","0.437594974493684","0.504852341308647","4.05787038441811","1.64044082468426","3.03810026027604","228.684320685017","10301.9882972977","6.82342639939893","3.30268837956415","0.789755771811606","0.134851960486252","165","85.5","79.5","527.285567779228","482679","275.25","5.61606229914324","NaN","NaN","12.7279220613579","3.53553390593274","9.19238815542512","178.243252955995","2224.55793361288","12.3743686707646","4.40677756464787",NA,NA,"8","12","21","15","15","8","23","23","4","12","3","8","22","4","3","6","18","25","12","25","19","10","6","20","2","6","30","22","30","26","3","2","6","4","3","4","4","3","5"
"38","48","2","34","37","11","2017-08-17","10:22:57","0.708333333333333","0.770833333333333","14.1666666666667","8.04166666666667","6.125","362.380009876425","35153.125","25.0885416666667","8.99728206028376","1.27858285099018","1.19775769370995","0.459339643185104","0.424744395393794","3.76056431558233","1.92363058042054","2.26560780441017","82.0775892310074","10041.5004338379","7.53934530415262","3.87102011221024","0.38618510066842","0.348630716910212","170","88.5","81.5","489.138098907257","481519.5","289.5","6.7388778932214","NaN","NaN","4.24264068711928","2.12132034355964","6.36396103067893","55.7854053894787","320.319371877506","8.1317279836453","6.34823199643047",NA,NA,"8","11","4","18","18","11","24","20","0","16","2","8","22","4","4","4","22","34","17","27","15","10","5","26","4","6","34","29","37","29","2","3","5","4","2","0","4","4","5"
"39","48","2","17","30","18","2017-08-24","15:09:29","0.354166666666667","0.625","15","7.64583333333333","7.35416666666667","407.209104500859","37993.9791666667","23.3020833333333","8.70117037702055","1.36193380868013","1.12216642382868","0.483321105250062","0.489246054790082","3.57889796421997","1.75632090478004","2.61330135492086","162.28828930425","8320.60185652912","6.85506458474265","3.71713237494003","0.704832101833555","0.162674263358311","177.5","97.5","80","352.098922136422","482973","311.375","8.91966716353861","NaN","NaN","12.0208152801713","4.94974746830583","7.07106781186548","141.99698392942","1687.1567799111","15.3795724908074","1.30060577554549",NA,NA,"10","13","12","15","22","14","26","25","2","9","2","6","18","0","4","8","16","34","11","26","28","12","7","27","0","8","29","22","35","40","4","5","7","5","2","2","3","4","6"
"40","0","2","0","0","0","2017-08-30","14:17:28","NaN","NaN","NaN","NaN","NaN","NaN","NaN","NaN","NaN","NaN","NaN",NA,NA,NA,NA,NA,NA,NA,NA,NA,NA,NA,"146.5","72.5","74","871.786113214691","483306.5","248.625","10.8604655764198","NaN","NaN","9.19238815542512","0.707106781186548","8.48528137423857","29.5634758759413","1762.81720549806","21.0364267402998","4.29104590126966",NA,NA,"8","6","8","18","19","8","19","16","1","23","3","4","31","4","7","4","12","30","16","14","18","6","3","11","0","4","25","27","27","34","2","2","3","4","3","1","2","7","3"
"41","48","2","15","26","22","2017-08-31","13:52:19","0.3125","0.541666666666667","16.0625","8.33333333333333","7.72916666666667","326.663975187287","39084.8958333333","26.609375","8.67397447661533","1.64524079803546","1.1440116447917","0.468417435218867","0.503533612870859","4.01277878994361","2.06627770304461","2.55775486102129","198.805118255037","9277.26298880152","7.94042080621595","3.78728697987638","1.15900275565499","0.230654420130367","180","104","76","271.084802450613","480909","334.375","1.17924764150707","NaN","NaN","9.89949493661167","2.82842712474619","7.07106781186548","99.0312418559488","1074.80230740355","10.4298250225016","1.66770800801579",NA,NA,"6","18","15","18","18","13","17","22","1","16","2","4","16","2","3","10","21","27","8","28","29","14","7","31","2","12","26","21","41","39","5","4","7","3","2","1","2","3","7"
"43","48","2","34","41","7","2017-09-07","13:40:44","0.708333333333333","0.854166666666667","14","7.75","6.25","317.25203691155","33742.3541666667","23.515625","9.70746147315888","1.23645854928344","1.14299775966068","0.459339643185104","0.356673957637416","3.79809582750273","1.98397838011556","2.41889723423448","117.558365838565","9077.23790937455","6.93921293784882","3.82681386240571","0.392745409140965","0.266022344531935","181","90","91","342.514136238773","481283","298.875","8.18479263887214","NaN","NaN","1.4142135623731","2.82842712474619","1.4142135623731","111.785836428361","123.036579926459","13.611805537841","3.29102399221402",NA,NA,"8","19","28","23","19","14","31","30","4","13","2","10","22","4","4","2","19","34","16","13","20","6","3","12","4","2","30","31","28","42","1","4","3","4","2","4","5","4","3"
"44","48","2","1","23","25","2017-09-13","16:51:37","0.0208333333333333","0.479166666666667","15.7291666666667","8.1875","7.54166666666667","560.118691080233","41025.1875","26.546875","10.5014061305247","1.47975739338914","1","0.144337567297406","0.504852341308647","3.64218535832502","1.53894478907782","2.79024389487869","199.401900010546","7326.8856629053","6.36931979943281","3.14801533399912","0.546178267344186",NA,"165.5","98","67.5","449.927807387667","481143","310.875","9.22910196624968","NaN","NaN","9.19238815542512","2.82842712474619","6.36396103067893","108.486349105488","206.475180106472","1.23743686707646","3.56508818868936",NA,NA,"6","10","14","13","14","8","16","17","2","10","2","5","18","4","4","12","12","30","12","21","28","18","6","33","4","12","23","18","34","36","6","2","6","3","2","2","3","4","9"
"45","48","2","38","38","10","2017-09-13","14:33:56","0.791666666666667","0.791666666666667","13.8541666666667","7.85416666666667","6","356.188382958577","33208.9791666667","23.6875","9.37407398512027","1.33766485036143","1.25306543422342","0.410414079086058","0.410414079086058","4.46256096368553","2.2501969968922","2.56821819183088","272.639901586905","10763.9577797696","8.49929596583703","3.36860780710945","0.486569364655526","0.434699777747932","170.5","93","77.5","422.774547038328","480949.5","299.125","7.3371560631277","NaN","NaN","7.77817459305202","1.4142135623731","6.36396103067893","102.668233586112","1009.0413767532","1.59099025766973","8.25498527016354",NA,NA,"8","11","23","17","26","18","25","23","5","19","4","8","16","3","3","8","12","23","12","19","16","8","4","18","4","8","27","23","18","44","4","6","4","4","4","5","4","3","4"
"46","48","2","37","40","8","2017-09-15","10:37:58","0.770833333333333","0.833333333333333","14.25","7.72916666666667","6.52083333333333","373.92316833019","34967.375","23.0833333333333","9.1675904536445","1.23152753265699","1.14652676135127","0.424744395393794","0.376621788577355","3.99201330317998","2.12121586303437","2.40557493754442","140.981759913007","10410.7261557696","7.56203657509804","3.93052346999306","0.5176656266144","0.223116847251825","160","85","75","503.248030872749","482163.5","276.25","4.34813178273152","NaN","NaN","5.65685424949238","5.65685424949238","0","148.470117929855","2328.5026304473","3.18198051533946","6.14918693812442",NA,NA,"8","5","13","13","23","13","20","22","3","16","4","8","26","2","6","7","7","29","12","20","19","10","5","22","0","7","21","23","33","26","4","4","5","4","4","3","4","6","5"
"47","48","2","47","47","1","2017-10-18","14:05:23","0.979166666666667","0.979166666666667","12.2708333333333","7.14583333333333","5.125","285.499642718393","28326.7916666667","19.875","9.21020938775751","1.02651110904396","1.02651110904396","0.144337567297406","0.144337567297406","2.78857534993579","1.76236764504801","1.31480926535194","101.381762553624","7336.197881732","5.95349888184841","3.08266624585207","0.120841439515922","0.120841439515922","159.5","90","69.5","727.150004005447","483302.5","296.25","6.28361872241708","NaN","NaN","17.6776695296637","14.142135623731","3.53553390593274","344.081059979095","3638.06438920479","49.8510280736516","1.23784954763456",NA,NA,"8","16","20","21","22","14","20","18","4","10","1","8","15","4","3","4","14","29","12","19","22","8","3","16","4","4","23","25","34","41","2","4","3","4","1","4","4","3","4"
"48","32","2","10","24","8","2017-10-12","14:14:12","0.3125","0.75","15.28125","8.96875","6.3125","296.509909107893","35954.71875","27","10.5387397753944","1.42111307632538","1.27918792517007","0.470929074859885","0.43994134506406","4.39379602944733","2.38928218401233","2.4943484507078","122.891389540365","10103.0168385947","8.32553398461818","3.57260565562469","0.63644155702886","0.452728046442332","176","101.5","74.5","383.480503575977","481196.5","320","14.7617338024078","NaN","NaN","2.82842712474619","3.53553390593274","0.707106781186548","85.2686814809436","358.50313806158","13.7885822331377","1.88611513267358",NA,NA,"8","16","23","20","25","8","15","18","4","16","4","4","19","2","3","8","16","27","16","26","20","12","4","26","0","12","26","27","33","32","4","3","4","4","4","4","2","3","6"
"49","48","2","47","47","1","2017-10-17","10:45:06","0.979166666666667","0.979166666666667","12.1666666666667","7.20833333333333","4.95833333333333","352.15157414923","29076.6458333333","20.3020833333333","9.19427121584747","1.01199276157052","1.01199276157052","0.144337567297406","0.144337567297406","2.79310193865464","1.50118156772949","1.63678893391433","138.115577424294","6695.57392861876","5.27412348604953","3.41137985076936","0.0575193047085034","0.0575193047085034","152.5","85","67.5","736.087142481137","481523","274.25","5.6568542494924","NaN","NaN","17.6776695296637","4.24264068711928","13.4350288425444","340.508920685714","593.9696961967","11.667261889578","8.00000000000003",NA,NA,"8","8","20","17","13","16","20","19","4","18","4","8","13","4","3","8","11","32","8","15","15","8","4","19","2","8","22","13","30","33","4","5","4","4","4","4","4","3","4"
"50","48","2","16","30","18","2017-11-21","17:04:50","0.333333333333333","0.625","13.8958333333333","7.45833333333333","6.4375","457.946386881773","35570.5","23.4010416666667","8.71196560892623","1.47920703204465","1.14342195185892","0.476393067340331","0.489246054790082","4.09587017400082","1.95653116111069","2.70465516738605","215.002890730557","10657.8889830242","8.06600753875474","3.600581959423","1.37324022042839","0.244877759456926","167.5","86","81.5","446.758341759352","483922.5","281.875","12.3336000900401","NaN","NaN","7.77817459305202","5.65685424949238","2.12132034355964","77.0782140066703","3817.66951162617","10.4298250225016","0.277700626448731",NA,NA,"6","16","16","11","16","10","19","25","3","23","6","5","19","2","4","8","13","39","6","23","27","6","4","14","4","10","32","22","32","46","4","3","4","3","6","3","3","4","3"
"51","11","2","3","9","1","2017-11-08","13:35:38","0.272727272727273","0.9","9.09090909090909","5.36363636363636","3.72727272727273","3111.87778055278","29310","14.5227272727273","7.59703492757247","1.13428571428571","1.11428571428571","0.467099366496914","0.316227766016838","4.32329840410179","3.07482445914323","1.95401684183679","8989.08950853427","13838.2910714357","9.42367666137701","3.49031751280142","0.322701184413334","0.197948663722156","148.5","85","63.5","659.710839160839","481070","281.25","9.1661147660808","NaN","NaN","24.7487373415292","21.2132034355964","3.53553390593274","309.740955534902","650.538238691624","51.618795026618","4.83111583281446",NA,NA,"8","6","10","16","19","8","20","19","2","16","2","8","19","4","5","10","9","21","6","21","21","6","6","19","6","10","23","15","25","35","5","2","6","4","2","2","4","5","3"
"52","48","2","40","41","7","2017-11-07","16:48:34","0.833333333333333","0.854166666666667","13.75","7.79166666666667","5.95833333333333","435.890723376569","34294.2291666667","23","9.13727638995666","1.22696549292185","1.10487114471083","0.376621788577355","0.356673957637416","2.91365092317657","1.70054225811392","1.79785135746705","157.661011213739","8170.93485169357","6.49304046407268","3.67673435216386","0.647066282550106","0.463664112158495","152.5","80.5","72","701.005882352941","481916","268.25","3.25","NaN","NaN","2.12132034355964","2.12132034355964","4.24264068711928","0.574004328257034","452.54833995939","12.3743686707646","4.59619407771256",NA,NA,"2","6","14","12","17","10","13","17","3","22","5","6","14","2","3","6","20","31","10","25","20","10","4","23","4","6","23","24","39","27","3","3","4","1","5","3","3","3","5"
"53","48","2","31","40","8","2017-11-08","15:56:48","0.645833333333333","0.833333333333333","12.9583333333333","7.25","5.70833333333333","459.658245540579","32397.2083333333","21.9895833333333","8.77190756802778","1.26059727020339","1.16137934592105","0.483321105250062","0.376621788577355","4.61707438607229","2.53905661824196","2.39643647973787","241.397147864045","11766.2473725598","8.81200799642613","3.50117641524954","0.618073266585951","0.297199408981051","163.5","91.5","72","502.922549613695","483789.5","302.25","11.8759231149411","NaN","NaN","2.12132034355964","3.53553390593274","1.4142135623731","95.1429259911613","2158.79700296253","4.59619407771256","5.72711972426056",NA,NA,"10","14","17","16","20","11","27","24","2","20","4","8","20","4","3","4","10","27","13","13","23","8","6","12","6","5","24","20","26","37","2","3","6","5","4","2","4","3","4"
"54","48","2","10","29","19","2017-11-20","13:56:26","0.208333333333333","0.604166666666667","12.9166666666667","7.45833333333333","5.45833333333333","876.719559820859","37819.3958333333","22.6875","9.39862634832813","1.27970794334123","1.10875641732785","0.410414079086058","0.49420399497827","4.03090894840787","1.8901574102336","2.40529852469663","333.996558389352","10437.0488629517","7.46543453296306","2.92988814214114","0.582464225971857","0.145659374514292","148.5","84","64.5","896.973229945537","482243","276.875","9.83219426420705","NaN","NaN","13.4350288425444","9.89949493661167","3.53553390593274","398.51814958362","2838.3266196828","8.30850467894193","5.62080171343811",NA,NA,"8","14","14","14","23","16","19","18","3","8","1","6","20","2","4","4","10","25","8","21","22","8","5","16","4","4","21","23","28","30","2","5","5","4","1","3","3","4","4"
"55","48","2","10","39","9","2018-03-07","15:19:21","0.208333333333333","0.8125","14.0833333333333","7.41666666666667","6.66666666666667","356.958453714114","34492.0625","22.328125","8.97436491821487","1.28931008696821","1.17345606760544","0.410414079086058","0.394442779605583","3.64856913564601","1.96602345534084","2.05595485227909","149.51744203502","9070.73527810024","7.51295976927075","4.04576128886969","0.627355861116237","0.126828426906295","166.5","84.5","82","484.940641691666","482751","275.75","11.4086211558665","NaN","NaN","10.6066017177982","2.12132034355964","12.7279220613579","144.754412467953","1781.9090885901","11.3137084989848","3.57934723711327",NA,NA,"6","8","14","16","14","11","19","15","3","18","4","4","21","4","4","8","24","30","10","22","29","8","4","21","8","8","22","25","34","36","4","3","4","3","4","3","2","4","4"
"56","48","2","47","46","2","2018-02-13","12:07:36","0.979166666666667","0.958333333333333","12.875","7.625","5.25","271.681779097128","30127.5208333333","21.8854166666667","8.88983929920715","1.04981544536873","1.04981544536873","0.144337567297406","0.201940936523459","3.38724139312792","2.0589710299389","1.76851903423969","177.044281295112","8536.62859604369","6.99333998015356","3.86637536357018","0.131780151179501","0.131780151179501","156.5","81.5","75","705.06061734525","481584.5","267.625","9.875","NaN","NaN","4.94974746830583","2.12132034355964","2.82842712474619","81.99448496544","132.228968081884","9.36916485072175","2.65165042944955",NA,NA,"10","8","16","19","27","13","21","16","3","19","2","8","26","2","6","6","10","23","13","14","13","8","3","19","2","6","17","25","33","31","3","4","3","5","2","3","4","6","4"
"57","48","2","44","45","3","2018-02-14","10:25:46","0.916666666666667","0.9375","12.6041666666667","7.35416666666667","5.25","353.054561795095","30597.4583333333","21.21875","9.4524199060274","1.10791830561256","1.03085135504054","0.279310193865464","0.244623027395041","3.35641388752894","1.89612800687077","1.78050913110757","195.46766164824","8228.97870387725","6.40387702547814","3.67071324788862","0.454545171057963","0.0888257601693766","164","88.5","75.5","449.778390214437","480171.5","284.125","5.17884362846499","NaN","NaN","12.7279220613579","6.36396103067893","6.36396103067893","120.503189956111","94.0452018978108","11.8440385848747","0.960029866105758",NA,NA,"6","12","17","15","21","11","20","21","4","16","4","6","24","4","4","8","14","22","12","21","18","8","5","21","6","8","21","25","28","31","4","3","5","3","4","4","3","4","4"
"58","48","2","8","37","11","2018-02-23","10:16:15","0.166666666666667","0.770833333333333","14.3125","7.79166666666667","6.52083333333333","291.717169919523","34253.9791666667","24","8.91390853811077","1.29760297566996","1.15811003298963","0.376621788577355","0.424744395393794","3.75956227646761","1.62373791687422","2.52636803751807","66.3522732535813","9094.04029416503","7.22031707914578","3.58046490372944","0.449010559513984","0.210371124597344","178.5","94.5","84","345.850273328248","482437.5","302.25","10.1513834033862","NaN","NaN","9.19238815542512","2.12132034355964","7.07106781186548","48.5017629792934","641.345850536199","7.07106781186548","5.74663640705667",NA,NA,"4","20","23","17","27","13","26","24","4","15","2","12","27","2","5","6","10","27","16","18","15","12","4","18","4","6","28","26","35","32","3","4","4","2","2","4","6","5","6"
"59","48","2","44","44","4","2018-03-06","12:21:13","0.916666666666667","0.916666666666667","12.8125","7.27083333333333","5.54166666666667","217.571326301014","29047.875","20.828125","9.09269835304922","1.09729522683389","1.03893321475153","0.279310193865464","0.279310193865464","3.68814229891165","1.92120954070366","2.15325911647786","96.8538452279362","8616.80254817617","6.84928095503928","3.06032837795083","0.269986012401724","0.10500187022768","180","97","83","257.972964535464","481944.5","310.75","5.5","NaN","NaN","4.24264068711928","1.4142135623731","2.82842712474619","51.2231225133194","320.319371877506","8.83883476483184","1.4142135623731",NA,NA,"8","14","31","23","25","15","22","22","7","17","4","6","21","2","5","8","15","37","10","14","14","8","4","16","4","8","28","31","28","45","4","5","4","4","4","7","3","5","4"
"60","48","2","11","27","21","2018-03-09","11:56:27","0.229166666666667","0.5625","15.2083333333333","7.85416666666667","7.35416666666667","320.353238803662","37053.625","25.65625","9.62094834968803","1.59026851052041","1.32030723905724","0.424744395393794","0.501328023587394","4.51926530148964","2.05239438096957","3.03518083399251","134.448247861729","10799.3903504545","8.58710453888283","3.38230827931282","0.80027697214123","0.464831000839957","189","100","89","326.213315217391","483737.5","313.75","7.82331913042239","NaN","NaN","5.65685424949238","1.4142135623731","4.24264068711928","8.16823621419598","1536.54303551837","3.88908729652601","1.44615198618057",NA,NA,"8","22","23","31","22","15","22","25","4","19","2","6","22","0","5","8","19","31","11","18","18","8","2","23","2","12","29","26","40","49","4","5","2","4","2","4","3","5","4"
"61","48","2","2","34","14","2018-07-24","09:59:06","0.0416666666666667","0.708333333333333","12.3541666666667","6.9375","5.41666666666667","677.340702795298","33739.4791666667","20.6510416666667","9.25893189275636","1.2436939445963","1","0.201940936523459","0.459339643185104","4.53585987688057","2.51299812464476","2.32317952826883","195.752805587738","13226.8028429536","9.84666208473678","3.61274237162154","0.434173770550958","0","160.5","87.5","73","561.774076257861","480453","292.375","9.5411147660808","NaN","NaN","0.707106781186548","4.94974746830583","4.24264068711928","25.5543776737893","527.501658765165","15.3795724908074","4.30078574692455",NA,NA,"8","12","16","12","27","17","26","20","3","13","3","10","22","4","4","2","11","20","12","17","21","10","4","17","6","4","21","22","24","37","1","5","4","4","3","3","5","4","5"
"62","48","2","45","43","5","2018-07-25","10:05:00","0.9375","0.895833333333333","13.9166666666667","8.20833333333333","5.70833333333333","302.504286694755","33723.5416666667","24.9322916666667","9.1706122585377","1.25472028998737","1.23048060292998","0.244623027395041","0.308709278188584","3.47534375053708","2.10327336911972","1.67533208309651","100.82836881914","8552.91484706855","7.50757411582529","3.72136242086999","0.362717236582529","0.328890486360271","181.5","97","84.5","395.620781855062","482946","298.5","7.78019253464867","NaN","NaN","9.19238815542512","0","9.19238815542512","26.7723953249356","1103.08657865101","2.47487373415292","0.74980547316911",NA,NA,"10","16","23","16","26","18","26","28","3","0","0","8","20","6","3","10","15","27","13","20","18","12","3","25","4","13","32","23","28","31","5","5","3","5","0","3","4","3","6"
"64","48","2","18","27","21","2018-10-17","16:15:53","0.375","0.5625","15","7.89583333333333","7.10416666666667","621.781203083409","40664.6458333333","25.640625","8.55048310168355","1.62083165883241","1.25036549667252","0.489246054790082","0.501328023587394","2.60114541054677","1.65336000035689","1.98118364935769","264.134556615369","7243.03562929358","6.26644777255585","3.66697730161282","0.925273445822457","0.291735056997123","168.5","83.5","85","444.571540600271","481519.5","267.875","4.91966716353861","NaN","NaN","2.12132034355964","3.53553390593274","1.4142135623731","75.6764056860293","2140.41222665168","10.0762716319083","6.95746002503787",NA,NA,"8","13","16","14","17","11","22","27","4","16","2","8","16","4","4","6","15","29","8","24","27","10","6","20","4","6","25","23","33","38","3","3","6","4","2","4","4","4","5"
"65","48","2","20","34","14","2018-10-18","17:04:36","0.416666666666667","0.708333333333333","14.6458333333333","7.79166666666667","6.85416666666667","438.574218665876","36480.875","23.484375","9.51742883550986","1.31619860387884","1.1414649285614","0.498223795452014","0.459339643185104","3.99195778413983","1.86750867534324","2.55983363267036","176.171921120593","9184.20253924721","7.25548329878418","3.29418514551651","0.551570151063109","0.228449839752114","164","90.5","73.5","512.666717003927","481379.5","298.25","8.9554522368147","NaN","NaN","12.7279220613579","7.77817459305202","4.94974746830583","222.530412240584","1093.89419049559","13.0814754519511","0.315832975259351",NA,NA,"12","15","24","21","14","4","28","25","5","29","6","8","24","2","4","4","14","27","15","13","9","6","1","12","2","4","22","22","41","27","2","1","1","6","6","5","4","4","3"
"66","48","2","47","48","0","2018-10-19","13:36:38","0.979166666666667","1","12.5625","7.54166666666667","5.02083333333333","285.673982107898","28857.6041666667","20.8958333333333","9.00403846621778","1.02879139946036","1.02879139946036","0.144337567297406","0","3.44504732388828","2.22135030175805","1.45118562434723","139.090159158225","8244.25410155741","6.93699482219214","3.65266583600042","0.0870863132436351","0.0870863132436351","165","87","78","571.594737626715","485619","278.75","5.90451218436603","NaN","NaN","11.3137084989848","9.89949493661167","1.4142135623731","269.590995899887","3412.49732600628","35.3553390593274","5.01482519429604",NA,NA,"10","14","20","13","19","15","22","28","4","12","2","8","16","6","3","6","13","21","12","23","23","9","4","19","2","6","28","19","21","39","3","4","4","5","2","4","4","3","5"
"67","48","2","11","25","23","2018-11-02","11:58:56","0.229166666666667","0.520833333333333","14.7291666666667","7.47916666666667","7.25","438.104030053176","36848.8541666667","23.5833333333333","8.3572845406686","1.63230255957357","1.20183095965659","0.424744395393794","0.504852341308647","5.00101939962854","2.42319977779806","3.01415102192619","228.379695243517","12772.6945256812","9.32642855028366","3.6554845564721","1.03864137153045","0.283971631502488","177","99","78","410.823514211887","481146.5","314.5","9.82127010967288","NaN","NaN","5.65685424949238","5.65685424949238","0","36.0407027637799","197.282791951047","7.07106781186548","2.82140157823956",NA,NA,"8","21","24","17","12","8","27","26","3","13","2","10","15","4","2","10","21","22","14","21","21","10","3","26","4","10","30","26","30","35","5","2","3","4","2","3","5","2","5"
"68","48","2","44","43","5","2018-10-23","13:18:56","0.916666666666667","0.895833333333333","12.9375","7.29166666666667","5.64583333333333","363.36131836233","31452.0208333333","21.0885416666667","9.02302527086925","1.06722062786525","1.04757401827724","0.279310193865464","0.308709278188584","3.09017833266295","1.64973670798517","2.12872535363435","179.838326087185","8986.46387627284","5.8755917726709","3.24166104696483","0.190355692454384","0.111639259842564","159","83.5","75.5","656.737005819788","482506","267.125","8.05231614366596","NaN","NaN","9.89949493661167","4.94974746830583","4.94974746830583","152.320279843377","9.89949493661167","14.6724657096209","1.77000266805255",NA,NA,"6","9","17","18","22","13","19","17","4","14","3","6","16","2","3","6","14","33","8","19","23","10","5","21","2","8","24","26","30","41","3","4","5","3","3","4","3","3","5"
"69","48","2","34","44","4","2018-10-23","15:45:25","0.708333333333333","0.916666666666667","12.9791666666667","7.47916666666667","5.5","347.34381900949","31737.6875","21.8697916666667","9.20224566743626","1.17999149488634","1.20074532354114","0.459339643185104","0.279310193865464","3.42388098404542","1.83337362947333","1.96782631996117","139.237630231073","8167.93212497131","7.16225136647164","3.88082817563912","0.568318233048122","0.651035002602583","161.5","93","68.5","479.055544769745","483360","305.5","1.5","NaN","NaN","3.53553390593274","7.07106781186548","3.53553390593274","140.241865664467","537.401153701776","16.9705627484771","2.12132034355964",NA,NA,"9","10","16","12","16","19","24","19","3","14","3","8","18","8","4","8","12","18","8","21","21","10","5","23","6","8","17","14","33","28","4","5","5","5","3","3","4","4","5"
"70","48","2","42","43","5","2018-10-29","10:47:20","0.875","0.895833333333333","13.1041666666667","7.41666666666667","5.6875","322.09545180956","31965.0833333333","22.4947916666667","9.50271126111847","1.18460784259342","1.06768989399542","0.334218682391596","0.308709278188584","3.42232708767521","1.97681597991308","1.94778925418624","95.1303808890292","9099.92937506691","7.53281642945911","3.41994922512697","0.6091683576122","0.240051174284264","165.5","91","74.5","482.835078728461","481006","289.5","10.8124642304007","NaN","NaN","16.2634559672906","5.65685424949238","10.6066017177982","175.531013051913","1262.89271119917","12.7279220613579","5.85715242525001",NA,NA,"10","17","18","21","17","11","23","22","4","21","5","6","16","4","4","8","11","27","6","18","17","8","4","21","4","8","22","22","28","38","4","3","4","5","5","4","3","4","4"
"71","48","2","21","39","9","2018-11-02","14:51:41","0.4375","0.8125","14.1041666666667","7.66666666666667","6.4375","459.312430733754","35372.125","22.75","9.73034467075792","1.20074690357708","1.11524241999205","0.501328023587394","0.394442779605583","3.6799605879789","1.75442702452885","2.42246796961896","139.161765884894","8975.11741551833","6.20397950529559","3.39822808720718","0.47473015246201","0.232897522974835","162","85.5","76.5","650.688484708063","481392.5","263.5","7.24271405932453","NaN","NaN","7.07106781186548","6.36396103067893","0.707106781186548","190.026755752721","0.707106781186548","18.7383297014435","6.90732843505545",NA,NA,"8","10","22","18","16","17","19","18","4","10","2","6","15","4","3","8","9","26","8","16","15","16","3","35","6","10","17","15","37","29","4","5","3","4","2","4","3","3","8"
"72","48","2","44","43","5","2018-11-06","10:01:19","0.916666666666667","0.895833333333333","13.125","7.54166666666667","5.58333333333333","421.521326825444","32339.4166666667","21.7447916666667","9.27076850681521","1.21554342683095","1.0725781654286","0.279310193865464","0.308709278188584","3.49239294905918","1.97816090532997","2.10200849577542","112.803452515846","8697.5848465606","7.14487049733995","3.67560781503093","0.86475789509907","0.171386230528651","166.5","88.5","78","583.50480102227","481313.5","283","6.7388778932214","NaN","NaN","0.707106781186548","0.707106781186548","1.4142135623731","22.7534776921109","1413.50645559191","13.0814754519511","6.34823199643047",NA,NA,"10","20","13","16","15","11","29","28","2","12","2","10","12","4","2","8","22","26","6","16","13","12","3","29","2","10","30","24","28","32","4","3","3","5","2","2","5","2","6"
"73","48","2","3","31","17","2018-11-09","09:08:13","0.0625","0.645833333333333","14.75","7.9375","6.8125","541.089752658887","38749.6458333333","24.734375","9.82017779907139","1.43034560186184","1.04705882352941","0.244623027395041","0.483321105250062","3.63493685742226","1.95051820719412","2.05929392981228","199.82962569669","8984.58981052483","7.73796358560362","3.67174282851701","1.14641347421894","0.0815082732973616","160.5","85","75.5","664.246669031851","483993.5","271.75","10.42270930141","NaN","NaN","12.0208152801713","1.4142135623731","10.6066017177982","165.769739798557","1441.79072683937","13.4350288425444","8.02242242945396",NA,NA,"6","9","16","17","22","19","16","15","3","13","3","4","17","6","4","10","16","30","12","19","17","8","2","21","4","12","23","25","28","37","5","6","2","3","3","3","2","4","4"
"74","48","2","7","25","23","2018-11-07","11:58:03","0.145833333333333","0.520833333333333","14.5208333333333","7.5625","6.95833333333333","598.68385027837","38683.9375","24.1770833333333","8.21488770853227","1.75304490695448","1.14057613851764","0.356673957637416","0.504852341308647","3.90847188582309","1.90079770488435","2.54289442500816","354.321650633158","9402.5478131722","7.88985989637314","3.98901352103729","2.22263618786286","0.205261459479225","142.5","85.5","57","842.466208791208","480254.5","272","12.2137936363218","NaN","NaN","2.12132034355964","4.94974746830583","2.82842712474619","137.620463028327","358.50313806158","7.42462120245875","0.521047040761655",NA,NA,"2","8","14","15","23","7","4","6","3","10","2","0","21","2","4","14","10","25","8","19","23","12","6","27","6","14","19","20","27","35","7","2","6","1","2","3","0","4","6"
"75","40","2","37","37","3","2019-02-27","12:39:17","0.925","0.925","13","7.35","5.65","289.163722156112","30370.75","20.9375","9.35028145755153","1.0536556759836","1.02696078431373","0.266746782836918","0.266746782836918","3.038218101251","1.51149442096734","1.92886309014218","112.58175785232","7279.45669552689","5.72353161103912","3.21560484633327","0.159149721352413","0.118148102449937","161","84","77","589.107645403378","483093.5","276","12.35973281305","NaN","NaN","5.65685424949238","4.24264068711928","1.4142135623731","130.009806978264","3534.82679915155","15.9099025766973","0.314657877751142",NA,NA,"4","10","15","17","21","17","16","16","3","16","4","6","22","4","5","8","18","25","12","19","18","6","3","25","4","8","19","24","33","33","4","5","3","2","4","3","3","5","3"
"76","48","2","3","25","23","2018-11-05","10:41:10","0.0625","0.520833333333333","13.875","7.125","6.75","645.428648878695","37315.1666666667","22.046875","8.1523413764294","1.32180166415688","1.19855758395312","0.244623027395041","0.504852341308647","4.12375061672456","1.98531845347343","2.60523205157491","453.437895488368","10939.3232361627","7.94707497541665","3.49566705637303","0.392590576668114","0.278760454723124","161","75.5","85.5","662.526315789474","481699","263.5","0.75","NaN","NaN","11.3137084989848","9.19238815542512","2.12132034355964","185.829522903143","1583.91918985787","22.6274169979695","1.06066017177982",NA,NA,"4","15","25","20","19","8","21","24","3","14","3","8","32","4","5","0","21","38","14","13","18","4","3","4","2","0","30","35","21","41","0","2","3","2","3","3","4","5","2"
"78","48","2","42","41","7","2019-02-22","09:37:42","0.875","0.854166666666667","13.2083333333333","7.66666666666667","5.54166666666667","542.960624002904","33815.5208333333","21.7916666666667","9.19344131443575","1.1373455192259","1.0742058130154","0.334218682391596","0.356673957637416","3.01738461735955","1.70522767349105","1.87886717039061","319.775693854672","8513.51720698322","6.2482621697432","3.43308547502605","0.307440367975048","0.201204712831435","159.5","91","68.5","559.394634185177","481132.5","292.75","7.5050999176196","NaN","NaN","0.707106781186548","1.4142135623731","0.707106781186548","104.791862661194","659.730626847049","2.82842712474619","6.72472679393683",NA,NA,"10","11","16","13","19","16","25","20","3","8","2","10","10","8","2","10","14","18","8","20","23","8","6","19","8","12","20","18","29","26","5","4","6","5","2","3","5","2","4"
"79","48","2","47","46","2","2019-02-27","17:50:05","0.979166666666667","0.958333333333333","12.25","7.33333333333333","4.91666666666667","288.289748000502","28603.3541666667","20.828125","9.47696303219105","1.03660898094885","1.02000701440626","0.144337567297406","0.201940936523459","2.99289939832776","1.90557226936132","1.49940886697212","56.2152642349442","6999.79875543419","6.54488517404923","3.57829372434488","0.135947357517351","0.0732518715531967","168","92.5","75.5","407.804324440619","483151.5","303","9.51213218188055","NaN","NaN","1.4142135623731","7.77817459305202","6.36396103067893","55.60996249745","2017.37564672522","33.587572106361","6.1978772744276",NA,NA,"8","12","17","20","22","15","19","17","3","27","5","6","20","6","4","8","13","25","12","20","17","6","3","19","4","8","21","25","36","38","4","4","3","4","5","3","3","4","3"
"80","48","2","48","47","1","2019-03-13","13:23:21","1","0.979166666666667","12.0416666666667","7.20833333333333","4.83333333333333","383.754330044955","29248.375","20.3072916666667","9.52704349095786","1.0080224772836","1.0080224772836","0","0.144337567297406","2.95324079710303","1.785977690806","1.56195912624394","127.890351714274","6907.68236720322","5.89474152234415","3.59184576336599","0.0402993872518326","0.0402993872518326","161","89","72","537.271885620532","484351.5","290.25","3.31066017177982","NaN","NaN","1.4142135623731","1.4142135623731","0","31.822208305469","3035.60941163385","3.88908729652601","1.68198051533947",NA,NA,"6","12","19","20","22","16","18","18","4","16","4","6","23","2","5","6","15","26","12","14","16","8","4","18","4","8","24","22","24","39","3","5","4","3","4","4","3","5","4"
"81","48","2","29","39","9","2019-04-15","16:03:52","0.604166666666667","0.8125","14.625","8.0625","6.5625","342.066062476574","35188.1666666667","24.015625","8.80788430853582","1.36025685001451","1.21789609737125","0.49420399497827","0.394442779605583","3.4984799130662","1.8031444166328","2.3238472319511","147.403170213487","8745.43447416102","6.64074428866575","3.44069467366608","0.604416736371857","0.388817602131561","159.5","87","72.5","628.326543259235","480385.5","282.875","11.6657371116765","NaN","NaN","14.8492424049175","5.65685424949238","9.19238815542512","189.606589777623","453.255446740577","11.1369318036881","0.619399130211639",NA,NA,"12","12","18","20","19","12","28","22","3","20","4","6","20","2","3","6","17","21","14","14","14","6","4","14","2","6","25","23","26","31","3","4","4","6","4","3","3","3","3"
"82","48","2","48","48","0","2019-04-26","12:11:20","1","1","12.3333333333333","7.41666666666667","4.91666666666667","216.534073813577","28144.9375","21.140625","9.13262809130729","1.02141244995666","1.02141244995666","0","0","3.1779381334667","1.9875499012425","1.39655096932732","40.9373117768428","7128.27808698372","6.36999829862364","3.65646468891862","0.0667292010912331","0.0667292010912331","179.5","98","81.5","326.425824175824","481267","309.25","13.0051392670787","NaN","NaN","4.94974746830583","4.24264068711928","0.707106781186548","20.6109971109598","1149.75562620933","16.2634559672906","0.598084682779374",NA,NA,"10","15","20","12","18","14","31","25","3","15","3","12","18","4","3","8","9","25","10","19","25","10","4","30","6","10","21","17","30","37","4","4","4","5","3","3","6","3","5"
"83","48","2","42","43","5","2019-04-25","10:48:11","0.875","0.895833333333333","13.5416666666667","7.54166666666667","6","339.263560537366","32220.8125","21.9479166666667","9.18898276299563","1.12937146378103","1.12688448674542","0.334218682391596","0.308709278188584","3.56673957637417","2.18270116991839","1.95698421916033","235.218042576706","8910.04575448827","7.29852767383078","3.27386360828508","0.252539867505379","0.256953669842312","169.5","94","75.5","388.222327908124","480274","300.875","9.93346169607441","NaN","NaN","3.53553390593274","4.24264068711928","0.707106781186548","152.148026111429","462.447834896002","3.71231060122937","2.66273871516637",NA,NA,"6","14","14","17","15","14","15","18","2","20","4","6","24","4","5","12","19","23","15","20","12","12","3","28","6","11","27","24","33","34","6","4","3","3","4","2","3","5","6"
"84","48","2","46","47","1","2019-04-30","15:11:27","0.958333333333333","0.979166666666667","12.2291666666667","7.27083333333333","4.95833333333333","229.088395892302","28016","20.8020833333333","9.65580027531898","1.04864165752244","1.04612358276041","0.201940936523459","0.144337567297406","3.30209207272262","2.06015474871488","1.67533208309651","96.5196142390285","7631.16692785914","7.02578047707561","3.5362710558211","0.133241534916792","0.133724121392685","180.5","101","79.5","258.98729946524","482191.5","334.125","10.52543977303","NaN","NaN","10.6066017177982","4.24264068711928","6.36396103067893","16.6349706263901","1771.3024868723","4.06586399182265","1.11478032303982",NA,NA,"10","14","18","20","21","16","23","22","2","16","3","6","23","5","5","8","17","29","19","24","20","8","4","18","2","8","32","25","30","40","4","5","4","5","3","2","3","5","4"
"85","48","2","13","29","19","2019-05-10","10:54:27","0.270833333333333","0.604166666666667","14.7291666666667","7.45833333333333","7.27083333333333","557.870250338435","39086.6041666667","23.0052083333333","8.86436317549673","1.29684571758701","1.2389553014553","0.449092860289629","0.49420399497827","3.4440178375334","1.55684259488499","2.68755669575691","306.362748707052","8516.8390643767","6.52011812632299","3.15383806590285","0.417154810677689","0.384701706448255","158","79.5","78.5","660.423499938898","481598.5","260","9.02377805818628","NaN","NaN","14.142135623731","7.77817459305202","6.36396103067893","203.22100263211","772.867711836896","8.1317279836453","1.00889004018862",NA,NA,"4","15","16","13","14","5","19","29","2","18","4","8","16","2","3","8","14","30","10","25","25","4","5","15","2","10","33","17","32","32","4","2","5","2","4","2","4","3","2"
"86","48","2","10","37","11","2019-04-29","16:10:47","0.208333333333333","0.770833333333333","14.2291666666667","8.04166666666667","6.1875","469.891653301137","35437.8958333333","24.7864583333333","9.41607029661839","1.58824782529588","1.11352112676056","0.410414079086058","0.424744395393794","4.6687716883581","2.68928791756221","2.38484800354236","296.503553573242","11141.817102727","9.57820408911269","3.58822918490135","1.39408099337048","0.239810258042605","150.5","78","72.5","806.232401656315","482867","246.125","14.1609067095883","NaN","NaN","16.2634559672906","11.3137084989848","4.94974746830583","256.187129206598","659.023520065862","24.5719606462325","3.40953696631607",NA,NA,"12","3","12","14","7","4","18","16","3","22","4","8","11","2","2","6","14","22","7","33","19","16","3","33","4","6","20","13","37","24","3","1","3","6","4","3","4","2","8"
"87","48","2","30","31","17","2019-05-08","13:11:22","0.625","0.645833333333333","15.5208333333333","7.8125","7.70833333333333","311.218504883346","37801.5208333333","25.1510416666667","8.71967227332713","1.54159870042219","1.20969081232718","0.489246054790082","0.483321105250062","4.3023476190867","2.1403544148754","2.79024389487869","95.3636536100437","10495.1263136745","8.36178929227709","4.07964235342392","1.04376347822929","0.312311566715341","163","87.5","75.5","526.359501296325","479726","287.25","12.3545811838983","NaN","NaN","5.65685424949238","4.94974746830583","0.707106781186548","49.0517181053494","1535.83592873718","9.89949493661167","0.321943381565863",NA,NA,"8","6","11","15","15","11","20","16","2","11","2","8","19","4","4","10","19","38","8","22","25","10","5","25","2","10","22","24","36","32","5","3","5","4","2","2","4","4","5"
"88","48","2","31","41","7","2019-08-01","14:50:43","0.645833333333333","0.854166666666667","13.9375","7.875","6.0625","289.097518223413","33284.1875","24.1666666666667","8.62152980047872","1.29864037813372","1.19418253849673","0.483321105250062","0.356673957637416","3.94324766248071","2.16966513741421","2.1675189267622","191.374822591713","9356.23641750602","8.38364246571309","3.56847230908721","0.41004616968477","0.260005621127154","152","82","70","798.867807017544","481962.5","275.125","9.27835063574205","NaN","NaN","1.4142135623731","0","1.4142135623731","89.1504102723238","47.3761543394987","3.3587572106361","6.40405488424723",NA,NA,"8","15","6","17","15","11","17","20","0","15","2","4","22","4","2","4","19","31","13","21","17","11","4","18","4","4","30","19","34","32","2","3","4","4","2","0","2","2","6"
"89","48","2","30","38","10","2019-05-10","14:57:13","0.625","0.791666666666667","14.4791666666667","8.27083333333333","6.20833333333333","403.04933101966","36354.3958333333","24.9010416666667","9.16874166659774","1.25819706565894","1.22622333399279","0.489246054790082","0.410414079086058","3.60253801393462","2.19030342144968","1.94562611847904","169.962259288906","9478.3355275015","8.00959191979412","3.45188187976617","0.40629687465609","0.30358888079649","163.5","93.5","70","424.223886532343","481219","309.5","4.98121471129282","NaN","NaN","2.12132034355964","3.53553390593274","5.65685424949238","34.995599421709","254.558441227157","17.6776695296637","7.04450140180269",NA,NA,"6","8","12","16","17","15","14","11","2","17","3","4","21","6","4","8","14","30","20","20","24","10","5","22","10","8","28","25","26","42","4","4","5","3","3","2","2","4","5"
"90","47","2","4","29","17","2019-05-22","13:49:45","0.0851063829787234","0.630434782608696","14.4255319148936","7.85106382978723","6.57446808510638","387.036949505229","35960.847826087","23.7446808510638","8.98617937380703","1.5889419757039","1.08958333333333","0.282056672846969","0.488020748747151","4.95082198204221","2.4135372147828","2.85706356438141","132.043172545231","10587.7088822997","9.4216577169339","4.16555041590612","1.18319329615487","0.129703186802278","164.5","95","69.5","482.360023946719","480125.5","314.625","3.55205098312484","NaN","NaN","3.53553390593274","4.24264068711928","0.707106781186548","70.350854268317","178.898015640197","4.06586399182265","0.279942184323272",NA,NA,"6","8","11","12","18","12","15","12","2","19","3","6","19","6","2","6","19","29","18","31","21","12","4","26","6","6","28","35","35","28","3","3","4","3","3","2","3","2","6"
"91","48","2","23","33","15","2019-05-07","16:05:47","0.479166666666667","0.6875","12.75","6.6875","6.0625","702.644033342747","34629.2708333333","20.1770833333333","7.90774021466114","1.24587047669478","1.18138016268981","0.504852341308647","0.468417435218867","4.6149617918706","2.34435719085166","2.72425082420681","299.771728430656","13312.3177845719","8.7660124509825","3.11656331959353","0.391970325579457","0.38189383797092","148.5","75.5","73","823.172430646064","480739","245.625","7.95445526581909","NaN","NaN","23.3345237791561","13.4350288425444","9.89949493661167","363.532897472964","272.943217538007","31.2894750675047","1.12507015255314",NA,NA,"6","7","16","17","13","8","23","20","3","19","4","6","14","4","3","8","18","24","6","18","9","10","2","25","6","8","22","19","24","29","4","2","2","3","4","3","3","3","5"
"92","40","2","4","23","17","2019-08-02","14:41:09","0.1","0.575","14.6","7.85","6.75","523.808795958728","38388.8","24.56875","8.54194108006353","1.53463480354337","1.16260282021152","0.3038218101251","0.500640615253123","3.74028656519037","2.08228178590157","2.27303028283098","151.882133721772","9999.7754569662","7.38414524244604","3.55261623851742","0.971275363268684","0.172906658654175","169","91","78","486.965443912812","481769","299","9.6568542494924","NaN","NaN","4.24264068711928","0","4.24264068711928","43.460940556374","622.253967444162","9.89949493661167","2.34314575050765",NA,NA,"8","16","20","21","20","11","17","24","2","10","2","4","14","4","3","4","20","26","10","24","24","10","4","26","10","4","33","24","30","38","2","3","4","4","2","2","2","3","5"
"93","48","2","39","41","7","2019-05-08","15:34:28","0.8125","0.854166666666667","13.3333333333333","7.79166666666667","5.54166666666667","355.751547198466","32607.8125","22.8697916666667","9.70113025412061","1.18819291556094","1.13390951585519","0.394442779605583","0.356673957637416","4.11708083597214","2.41412803811172","2.22135030175805","132.631160045003","10233.9338823727","8.42109647926685","3.55261350019808","0.299398767711776","0.215537455634371","160.5","82","78.5","623.747577213993","481758.5","266","3.25","NaN","NaN","10.6066017177982","4.24264068711928","6.36396103067893","117.801833660552","1356.93791309698","12.3743686707646","0.707106781186548",NA,NA,"10","10","20","17","15","11","22","21","4","16","3","6","15","4","3","8","21","35","8","20","14","6","4","16","4","8","27","21","27","36","4","3","4","5","3","4","3","3","3"
"94","48","2","10","25","23","2019-06-12","10:40:20","0.208333333333333","0.520833333333333","16","8.45833333333333","7.54166666666667","403.549313911171","39581.9166666667","26.0260416666667","9.52467049392924","1.38394682905296","1.07625055748818","0.410414079086058","0.504852341308647","4.13083887209778","2.25933838304005","2.7207503137009","200.342603937768","9468.43851026636","7.59920901247283","3.47493699664158","0.424294416016866","0.129235512508455","181","94.5","86.5","317.690464426877","482355.5","298","11.0966496435514","NaN","NaN","5.65685424949238","13.4350288425444","7.77817459305202","39.8750230653606","2281.83358288899","16.6170093578839","0.923976935070976",NA,NA,"12","11","11","14","11","10","27","29","2","19","3","6","18","2","4","6","17","38","11","23","29","12","5","30","2","10","28","21","32","44","3","3","5","6","3","2","3","4","6"
"95","48","2","15","26","22","2019-05-29","15:09:04","0.3125","0.541666666666667","13.5208333333333","6.9375","6.58333333333333","722.172042658207","36615.0416666667","21.4322916666667","8.6097831334543","1.41046265281557","1.03823818457965","0.468417435218867","0.503533612870859","4.53820464704267","2.39152982285754","2.99526813585591","360.762064615992","13214.2638148495","9.07119294497893","3.35140793200289","0.743981214392867","0.102203768671003","137","71","66","1084.69934994583","481252.5","227.625","8.96438993767146","NaN","NaN","8.48528137423857","0","8.48528137423857","148.754428945349","490.024999362277","9.36916485072175","0.303193157491294",NA,NA,"6","7","12","16","16","10","19","17","3","17","4","6","17","2","4","6","11","24","11","18","12","8","3","17","2","6","20","18","33","25","3","3","3","3","4","3","3","4","4"
"96","48","2","2","34","14","2019-08-05","15:11:22","0.0416666666666667","0.708333333333333","11.8333333333333","6.6875","5.14583333333333","748.474971464402","32893.9166666667","20.8645833333333","8.51450787176206","1.46955926529226","1","0.201940936523459","0.459339643185104","4.4403054012914","2.32613504666413","2.37889285291998","295.803413862504","13361.8152780535","9.39343341446868","3.57004819587733","1.42145001176502","0","159.5","88","71.5","689.930379241517","481209.5","292.125","6.4400729063673","NaN","NaN","12.0208152801713","14.142135623731","2.12132034355964","180.514396818013","9.19238815542512","22.8041936932662","5.92565793151669",NA,NA,"10","11","11","13","19","13","27","21","2","15","2","10","17","2","1","6","12","33","18","20","25","6","4","13","2","6","24","24","27","38","3","4","4","5","2","2","5","1","3"
"98","48","2","48","48","0","2019-08-07","10:41:54","1","1","12.4583333333333","7.5","4.95833333333333","250.276220803978","28555.6041666667","21.046875","9.13262809130729","1.0214202649956","1.0214202649956","0","0","3.13496637691653","2.02116461055965","1.39845406033421","62.7065839952681","6903.61235918846","6.16390838854216","3.65646468891862","0.0889732055224561","0.0889732055224561","177.5","97","80.5","325.762906954344","481856.5","314.625","12.4706608046485","NaN","NaN","3.53553390593274","0","3.53553390593274","33.2888463943327","19.0918830920368","5.83363094478902","5.12618163849165",NA,NA,"10","15","19","23","12","13","27","26","3","14","3","8","18","4","4","8","23","32","14","21","12","8","4","18","8","8","26","25","36","30","4","4","4","5","3","3","4","4","4"
"99","48","2","45","44","4","2019-08-06","14:33:10","0.9375","0.916666666666667","13.0833333333333","7.60416666666667","5.47916666666667","333.33372108896","31457.1666666667","21.96875","9.05696205321662","1.06420798806002","1.05375004977329","0.244623027395041","0.279310193865464","3.33155981188119","2.12121586303437","1.79822114623873","131.966110767429","8570.14639347974","7.03782051157825","4.01328655470034","0.132913969922878","0.125534701409593","168","92","76","432.213125336202","482450","293","4.25","NaN","NaN","2.82842712474619","2.82842712474619","0","34.3596840241287","1856.86240739587","5.30330085889911","0.707106781186548",NA,NA,"8","12","19","11","17","10","20","22","4","12","3","8","26","2","6","10","15","21","14","21","18","12","4","29","2","10","25","23","25","32","5","3","4","4","3","4","4","6","6"
"100","48","2","45","46","2","2019-08-06","16:40:18","0.9375","0.958333333333333","12.125","7.22916666666667","4.89583333333333","397.109187358694","29526.1875","20.8697916666667","9.52270943257079","1.12525054097122","1.03649904986287","0.244623027395041","0.201940936523459","3.30457452116872","1.99189403432302","1.56068156596873","118.145924040541","8427.48127147827","7.29762231449638","3.62049938666544","0.569147425529951","0.139518239038078","157.5","93","64.5","576.229461004492","481550","307.875","4.625","NaN","NaN","2.12132034355964","1.4142135623731","0.707106781186548","102.210538386695","395.979797464467","7.60139789775539","2.65165042944955",NA,NA,"8","12","16","25","20","15","20","20","2","18","3","8","21","6","4","6","15","17","6","16","20","6","3","15","6","7","13","16","37","33","3","4","3","4","3","2","4","4","3"
"101","48","2","12","35","13","2019-08-21","09:34:18","0.25","0.729166666666667","14.1666666666667","7.45833333333333","6.70833333333333","447.174379675729","35709.375","22.2135416666667","8.62126001929239","1.32035119639552","1.08816964285714","0.437594974493684","0.449092860289629","4.11190970455818","2.05207039543029","2.52610484219457","170.60998190465","11387.7369272594","7.50212551146116","3.47608404223508","0.681960743350392","0.245791078835862","163.5","84.5","79","575.909047619048","480220","272","6.79466716353861","NaN","NaN","17.6776695296637","3.53553390593274","14.142135623731","209.271955784822","272.943217538007","8.1317279836453","4.30580959558832",NA,NA,"10","21","26","17","14","7","31","25","5","17","4","10","16","2","4","4","15","29","6","16","13","8","1","18","4","4","29","22","19","40","2","2","1","5","4","5","5","4","4"
"102","48","2","25","35","13","2019-08-21","14:37:07","0.520833333333333","0.729166666666667","14.1041666666667","7.77083333333333","6.33333333333333","373.804449553356","34567.6875","23.625","9.32875221781615","1.30092746632069","1.12445885558269","0.504852341308647","0.449092860289629","4.24885257769087","2.31773535226103","2.72368128023674","167.542428730589","10724.5247975987","8.41193427802859","3.30544469861188","0.476165256129721","0.270137591058062","165.5","90","75.5","495.686515857175","480807.5","285.5","8.75","NaN","NaN","3.53553390593274","5.65685424949238","2.12132034355964","68.4864830692941","574.877813104663","1.4142135623731","1.06066017177982",NA,NA,"6","9","11","15","15","11","15","16","1","16","2","6","20","4","4","10","17","24","12","30","25","14","6","30","2","10","24","19","41","28","5","3","6","3","2","1","3","4","7"
"103","48","2","45","45","3","2019-09-19","11:05:14","0.9375","0.9375","12.625","7.45833333333333","5.16666666666667","334.793416860237","30108.8958333333","21.328125","9.6132523820907","1.06537158831849","1.02095558973608","0.244623027395041","0.244623027395041","3.43092940698941","2.07270337742286","1.7422574416279","144.475840597515","8399.09990425667","7.10748710905051","3.63540707028806","0.200681265748654","0.0761979293329736","153.5","86.5","67","609.326556159889","480506","286","4.2229378319482","NaN","NaN","13.4350288425444","7.77817459305202","5.65685424949238","333.203574121877","113.137084989848","34.6482322781408","2.97213595499958",NA,NA,"6","11","19","19","18","8","15","18","4","22","5","6","22","4","4","6","12","18","15","16","16","8","5","18","6","6","24","23","24","34","3","2","5","3","5","4","3","4","4"
"104","48","2","46","46","2","2019-11-04","15:52:51","0.958333333333333","0.958333333333333","12.8541666666667","7.5625","5.29166666666667","168.160589357878","28665.9791666667","21.3854166666667","9.20094214760795","1.08651385557058","1.0858117245789","0.201940936523459","0.201940936523459","3.35165620116087","1.95596469097487","1.68798423575039","104.122914340758","8834.84872413106","7.09715224829375","3.05994316671541","0.178931528116215","0.180843258147345","183","99.5","83.5","275.489523809524","482215.5","314.5","0","NaN","NaN","9.89949493661167","7.77817459305202","2.12132034355964","122.85340559838","952.472834258279","21.920310216783","0",NA,NA,"10","14","16","16","22","11","23","27","2","17","3","6","17","4","3","10","20","17","13","37","23","8","5","26","6","10","30","24","36","35","5","3","5","5","3","2","3","3","4"
"106","48","2","33","39","9","2019-11-08","14:43:15","0.6875","0.8125","14.7291666666667","7.77083333333333","6.95833333333333","325.500906792117","35092.5","23.15625","9.09500531916385","1.21280022845621","1.09798829987591","0.468417435218867","0.394442779605583","3.66547772471128","1.7164979604494","2.32432404571814","89.3443715424334","8586.05058194655","6.88616115303236","3.23620527624656","0.373789054038676","0.193217990704137","164","92","72","471.540762507535","482042.5","303.125","12.1819591360747","NaN","NaN","7.07106781186548","1.4142135623731","8.48528137423857","109.642362099164","103.944696834422","3.00520382004283","0.11064905788799",NA,NA,"6","12","19","16","20","11","18","16","4","15","3","8","21","4","4","6","10","33","17","15","27","8","5","18","6","6","24","25","33","37","3","3","5","3","3","4","4","4","4"
"107","48","2","44","44","4","2019-11-12","12:20:06","0.916666666666667","0.916666666666667","12.8958333333333","7.4375","5.45833333333333","259.011393600272","30108.6666666667","21.3489583333333","9.24415501238371","1.20141532096909","1.06046228340472","0.279310193865464","0.279310193865464","3.21723803399374","1.66191699103968","1.97816090532997","111.500533788301","8456.22668563617","6.20135099885444","3.38371006609989","0.929120677538218","0.15482281077246","180.5","95","85.5","363.838320193681","481062","293.875","6.2911147660808","NaN","NaN","2.12132034355964","4.24264068711928","2.12132034355964","16.0074595213362","593.9696961967","7.24784450716211","8.89697982463711",NA,NA,"12","22","30","25","24","11","28","24","4","14","2","8","25","4","4","8","11","24","8","14","19","8","5","19","0","8","23","22","32","43","4","3","5","6","2","4","4","4","4"
"108","48","2","40","39","9","2019-11-14","10:36:18","0.833333333333333","0.8125","13.75","7.6875","6.0625","415.744706496866","33822.25","22.734375","8.99961655732663","1.23786765046197","1.07156009988139","0.376621788577355","0.394442779605583","3.19906901350869","1.98028850251459","1.96139605079777","250.346085871211","8850.56792624187","7.34256865781185","3.8884547809179","0.546136857159639","0.151945320563463","165","83","82","537.142113095238","480902","270.25","9.41311896062463","NaN","NaN","5.65685424949238","7.07106781186548","12.7279220613579","70.9958357640441","840.042856049618","11.667261889578","2.24418868775736",NA,NA,"6","16","11","15","20","17","15","18","2","12","3","6","21","4","4","6","20","40","14","17","21","8","5","19","2","8","30","32","28","40","3","5","5","3","3","2","3","4","4"
"109","48","2","6","27","21","2019-11-18","14:36:18","0.125","0.5625","13.4583333333333","6.91666666666667","6.54166666666667","808.633534743872","37450.0416666667","21.5677083333333","7.82972362205939","1.57040391144004","1.17117117117117","0.334218682391596","0.501328023587394","3.90285402027108","1.9875499012425","2.43169088647712","562.533255020236","11176.6300576263","7.82653349519559","3.54024895177008","0.925257544380987","0.406185435767768","161.5","77","84.5","680.719033936476","481908.5","255.5","10.0518592184551","NaN","NaN","3.53553390593274","15.556349186104","19.0918830920368","39.2613668266149","1716.14815793975","50.2045814642449","2.90176713481946",NA,NA,"6","15","6","15","18","8","26","32","0","23","2","10","17","4","3","8","20","30","12","16","13","10","2","19","2","6","26","29","29","30","4","2","2","3","2","0","5","3","5"
"110","48","2","18","33","15","2019-11-15","14:22:39","0.375","0.6875","15.25","8.14583333333333","7.10416666666667","449.650704398765","37338.6875","24.9427083333333","9.9901393504361","1.44927134104018","1.16435259585655","0.489246054790082","0.468417435218867","4.59648339216711","2.29698769745715","2.75402671021313","239.519092228502","10899.1418736117","8.54730883106174","3.37374580770604","0.822149013797385","0.297952037582514","170.5","94.5","76","473.639306599833","480595.5","297.625","11.5318542494924","NaN","NaN","2.12132034355964","3.53553390593274","1.4142135623731","49.6271404629002","65.7609306503489","8.66205806953521","0.308504678941905",NA,NA,"12","14","25","15","12","7","30","29","4","16","3","6","9","2","1","8","18","24","8","21","23","12","5","27","0","10","26","18","30","32","4","2","5","6","3","4","3","1","6"
"111","48","2","20","32","16","2019-11-19","12:28:40","0.416666666666667","0.666666666666667","15.5833333333333","8.29166666666667","7.29166666666667","441.8737431839","38938.625","26.3385416666667","10.0668578125028","1.43352748861894","1.21237204873107","0.498223795452014","0.476393067340331","3.67182100646887","1.87886717039061","2.23090796641411","293.222494489753","8284.38138941703","7.76354163246891","3.53490028622465","0.617870573896145","0.375054575213036","165","85","80","525.827003588517","481366","282.625","14.5770214756691","NaN","NaN","16.9705627484771","1.4142135623731","15.556349186104","246.913272066332","329.511760032931","8.66205806953521","2.82106182062089",NA,NA,"10","9","11","20","25","17","22","20","2","21","4","6","19","4","4","4","14","31","12","17","17","9","4","20","4","4","26","25","35","35","2","5","4","5","4","2","3","4","5"
"112","48","2","41","46","2","2019-11-20","13:06:30","0.854166666666667","0.958333333333333","12.3333333333333","7.1875","5.14583333333333","371.69680091974","29817.7083333333","20.8802083333333","8.8838018990758","1.02520562842254","1.01080984140525","0.356673957637416","0.201940936523459","3.28331263268846","1.69675848655668","1.99988918132697","144.34646932543","7605.9664037121","5.69130299166261","3.73114996608597","0.117922485901423","0.0478265868838135","160.5","80.5","80","558.517198679142","482618","261.5","11.0163793089398","NaN","NaN","2.12132034355964","9.19238815542512","7.07106781186548","101.816955323064","1159.65512114594","25.1022907321224","2.21444662232528",NA,NA,"8","11","18","25","20","14","22","22","4","19","4","7","16","6","4","6","10","34","8","15","15","6","4","13","4","6","30","23","26","42","3","4","4","4","4","4","4","4","3"
"113","48","2","21","30","18","2019-11-22","10:37:36","0.4375","0.625","15.3125","7.89583333333333","7.41666666666667","325.563990562832","37508.0416666667","25.265625","8.7911611162189","1.47600327180534","1.27811535266646","0.501328023587394","0.489246054790082","3.81573589567359","1.8011767233263","2.77399269303164","107.110479168281","10077.1148373448","7.23786700278473","3.63831805592906","0.673313407818917","0.471882796076155","174.5","93","81.5","408.446432130756","482567.5","299.375","3.67884362846499","NaN","NaN","0.707106781186548","5.65685424949238","6.36396103067893","46.5445251662093","2083.84368415676","10.7833784130948","3.0813502096654",NA,NA,"4","17","22","22","16","11","22","22","4","15","3","10","18","4","4","4","14","34","10","26","20","12","3","20","4","8","28","20","37","40","2","3","3","2","3","4","5","4","6"
